Folder: dubstandard/example/aif

Note: README.md
Attempts to determine optimum Dubinin (Astakhov or Radushkevich) volume from an isotherm. Work in progress.

# How it works

1. The Dubinin transform is performed on the isotherm. Exponent can be specified or automatically optimised. 
2. Transformed isotherm sliced into pieces. Dubinin pore volume and related parameters calculated from each slice.
3. The dictionary of results is filtered; automatic filter parameters;

| Parameter  | Value         | Explanation	|
| ---------------- | ---------------- | ------------ |
| 'bounds'   | [1, 3]                | bounds of exponent	|
| 'curvature_limit'  | 1             | amount of curvature in selected region 	|
| 'p_limits'         | [0, 0.1]              | pressure range of isotherm to select 	|
| 'max_capacity'     | (total pore capacity)         | maximm isotherm loading in liquid volume |
| 'min_points'      | 10            | minimum number of points in selected region 	|	
| 'corr_coef'        | 0.999         | minimum correlation coefficient of linear regression |


4. The fitting range with the lowest pore volume is selected as the optimum.
5. Results are exported.
# Installation

- Install [pygaps](https://github.com/pauliacomi/pyGAPS/)
- Clone this rep
- `cd` into the cloned repo, and do `pip install .`

# Basic use

Run the function `analyseDR` on a pygaps isotherm, e.g.

```py

import pygaps.parsing as pgp
from dubstandard.dubinin import analyseDR

file = '/path/to/file.aif'
isotherm = pgp.isotherm_from_aif(
		isotherm,
		**{} # filter parameters can be changed here.
		)
analyseDR(isotherm)

```

Currently the easiest way to run the program is to start with an isotherm in `.aif` format. Example isotherms (copied from [betsi](https://github.com/nakulrampal/betsi-gui)) can be found in [`./example/aif/`](./example/aif/). Results from both Dubinin-Radushkevich and optimised Dubinin-Astakhov treatment can also be found in [`./example/`](./example/). 


# Testing on example isotherm set

Only a few isotherms successfully generated a Dubinin pore volume. It is possible that results could be attained by increasing bounds of exponent.

File: Al_fumarate.aif
data_5f06634693e7953515f95c2bcf4457e2
_audit_aif_version 1.0
_audit_creation_method pyGAPS
_exptl_adsorptive 'nitrogen'
_exptl_temperature 77.0
_sample_material_id 'Al_fumarate'
_units_temperature 'K'
_units_pressure relative
_units_loading 'cm3/g'
_pygaps_pressure_mode 'relative'
_pygaps_pressure_unit 'None'
_pygaps_material_basis 'mass'
_pygaps_material_unit 'g'
_pygaps_loading_basis 'volume_gas'
_pygaps_loading_unit 'cm3'
_pygaps_temperature_unit 'K'

loop_
_adsorp_pressure
_adsorp_amount
6.51e-05 0.178173
9.45e-05 0.349631
0.00014003 0.599944
0.0001685 1.15515
0.00021252 3.03911
0.00025687 22.9596
0.00028595 42.8873
0.00031893 62.806
0.00032856 63.5863
0.00039718 67.5014
0.00042706 87.4391
0.00045844 107.325
0.00051106 127.186
0.00058062 145.276
0.00063734 156.142
0.0008905 175.838
0.00101914 182.528
0.00135517 190.539
0.00163204 195.273
0.00211195 200.351
0.00259901 203.99
0.00329834 208.065
0.00436884 212.166
0.00523047 214.688
0.00677779 218.058
0.00847415 220.905
0.0107617 223.99
0.01407712 227.137
0.01702541 229.349
0.02213823 232.301
0.02792096 234.889
0.03553287 237.453
0.0447292 239.848
0.05686254 242.313
0.07464045 244.988
0.09444694 247.283
0.119932 249.593
0.14986 251.76
0.188607 254.05
0.237609 256.44
0.302415 259.24
0.375745 262.296
0.474393 266.757
0.538919 270.347
0.6026204 274.671
0.644038 278.143
0.684098 282.08
0.723912 286.64
0.763564 292.059
0.790607 296.302
0.815629 300.722
0.8405768 305.775
0.865723 311.738
0.91707 330.684
0.94041 346.424
0.96198 368.415
0.97071 381.535

File: HKUST-1.aif
data_ad8f013e50f0850204b05e2b724b9e8d
_audit_aif_version 1.0
_audit_creation_method pyGAPS
_exptl_adsorptive 'nitrogen'
_exptl_temperature 77.0
_sample_material_id 'HKUST-1'
_units_temperature 'K'
_units_pressure relative
_units_loading 'cm3/g'
_pygaps_pressure_mode 'relative'
_pygaps_pressure_unit 'None'
_pygaps_material_basis 'mass'
_pygaps_material_unit 'g'
_pygaps_loading_basis 'volume_gas'
_pygaps_loading_unit 'cm3'
_pygaps_temperature_unit 'K'

loop_
_adsorp_pressure
_adsorp_amount
4.6e-07 29.2422
8.1e-07 58.6914
1.24e-06 88.1823
1.95e-06 117.771
3.47e-06 147.021
1.98e-05 176.627
3.01e-05 188.1
3.99e-05 197.3
4.84e-05 205.734
6e-05 219.4
7.19e-05 234.899
8e-05 247.5
9.1e-05 263.906
0.00012216 292.899
0.00016995 309.4
0.00024003 320.839
0.0004699 333.9
0.00102994 346.752
0.00201034 351.561
0.00304576 354.006
0.00394851 355.426
0.00483019 356.484
0.00591267 357.525
0.00690474 358.317
0.00794568 359.036
0.00893684 359.633
0.0099502 360.2
0.01956639 363.856
0.02937333 366.721
0.03957375 369.6
0.05304876 373.587
0.05978248 375.548
0.07028586 377.661
0.08038212 379.273
0.09069335 380.715
0.100864 381.989
0.145578 386.47
0.201715 390.405
0.255898 393.273
0.306355 395.433
0.355727 396.995
0.400711 398.472
0.450996 399.931
0.500912 401.229
0.550729 402.389
0.60054 403.447
0.650424 404.438
0.699409 405.32
0.74943 406.162
0.79959 406.977
0.810604 407.276
0.82075 407.439
0.830251 407.588
0.840611 407.741
0.85009 407.871
0.86014 408.01
0.870537 408.164
0.880439 408.312
0.890352 408.441
0.900085 408.576
0.909886 408.727
0.920408 408.878
0.930174 409.027
0.940068 409.168
0.949687 409.337
0.959834 409.498
0.969298 409.673
0.979272 409.882
0.989261 410.101
0.998416 410.547

File: MIL-100.aif
data_eee1e08c027c5e6cc1e9dfc2ba4ec435
_audit_aif_version 1.0
_audit_creation_method pyGAPS
_exptl_adsorptive 'nitrogen'
_exptl_temperature 77.0
_sample_material_id 'MIL-100'
_units_temperature 'K'
_units_pressure relative
_units_loading 'cm3/g'
_pygaps_pressure_mode 'relative'
_pygaps_pressure_unit 'None'
_pygaps_material_basis 'mass'
_pygaps_material_unit 'g'
_pygaps_loading_basis 'volume_gas'
_pygaps_loading_unit 'cm3'
_pygaps_temperature_unit 'K'

loop_
_adsorp_pressure
_adsorp_amount
0.001034 197.129
0.00110842 199.524
0.00118819 202.082
0.0012737 204.812
0.00136537 207.723
0.00146364 210.823
0.00156898 214.122
0.00168189 217.626
0.00180294 221.342
0.0019327 225.275
0.00207179 229.427
0.0022209 233.799
0.00238074 238.386
0.00255208 243.179
0.00273575 248.161
0.00293264 253.307
0.00314371 258.581
0.00336996 263.934
0.0036125 269.296
0.00387249 274.578
0.00415119 279.66
0.00444995 284.388
0.00477021 288.564
0.00511352 292.092
0.00548154 295.488
0.00587605 298.803
0.00629895 302.014
0.00675228 305.107
0.00723825 308.071
0.00775918 310.907
0.00831761 313.635
0.00891623 316.293
0.00955793 318.952
0.01024581 321.623
0.0109832 324.288
0.01177366 326.938
0.01262101 329.57
0.01352934 332.182
0.01450305 334.783
0.01554683 337.391
0.01666574 340.041
0.01786517 342.79
0.01915092 345.701
0.02052922 348.674
0.0220067 351.682
0.02359052 354.729
0.02528833 357.829
0.02710833 361.007
0.02905931 364.303
0.03115071 367.757
0.03339262 371.106
0.03579589 374.459
0.03837212 378.203
0.04113376 382.88
0.04409415 388.544
0.0472676 395.508
0.05066945 404.619
0.05431612 416.005
0.05822525 424.172
0.06241572 430.917
0.06690777 436.115
0.07172312 440.087
0.07688503 445.298
0.08241844 451.435
0.08835008 458.598
0.09470863 466.446
0.101525 472.619
0.108832 479.666
0.116664 491.159
0.12506 506.19
0.134061 523.444
0.1437094 530.634
0.154052 533.161
0.165139 536.335
0.177024 540.586
0.189765 541.081
0.203422 543.618
0.218062 543.785
0.233756 545.891
0.25058 548.854
0.268614 549.487
0.287946 551.577
0.30867 552.569
0.330884 553.507
0.354698 555.523
0.380226 556.66
0.407591 558.336
0.436925 559.624
0.46837 560.132
0.502079 562.136
0.538213 563.958
0.576949 564.525
0.618472 565.805
0.662983 566.643
0.710698 568.492
0.761847 570.978
0.816677 571.492
0.875453 572.483
0.938459 574.941

File: MIL-101.aif
data_6d9880876fb00ba3d236f93da2ba148c
_audit_aif_version 1.0
_audit_creation_method pyGAPS
_exptl_adsorptive 'nitrogen'
_exptl_temperature 77.0
_sample_material_id 'MIL-101'
_units_temperature 'K'
_units_pressure relative
_units_loading 'cm3/g'
_pygaps_pressure_mode 'relative'
_pygaps_pressure_unit 'None'
_pygaps_material_basis 'mass'
_pygaps_material_unit 'g'
_pygaps_loading_basis 'volume_gas'
_pygaps_loading_unit 'cm3'
_pygaps_temperature_unit 'K'

loop_
_adsorp_pressure
_adsorp_amount
7.24e-05 0.08753826
0.00014359 4.44849
0.00019476 24.3099
0.00022592 43.8685
0.00026236 63.7515
0.00032093 83.6313
0.00034268 84.5319
0.00041074 98.2231
0.00049059 118.09
0.00052953 128.917
0.00064514 148.75
0.00066991 149.072
0.00082469 168.938
0.00101357 188.706
0.00101671 188.845
0.00130365 207.716
0.00169959 227.374
0.00211443 241.675
0.00259059 254.863
0.00340612 271.878
0.00414545 284.585
0.00545242 302.159
0.00672935 316.21
0.00863236 333.191
0.01089172 349.607
0.01380056 366.73
0.01740058 384.151
0.02206847 402.768
0.02782359 422.141
0.03445805 441.647
0.04178732 461.04
0.04486854 468.662
0.05300442 487.884
0.05480133 491.957
0.06506103 514.104
0.07174989 528.264
0.08178596 551.267
0.088454 568.141
0.09954232 591.886
0.114468 610.102
0.139194 629.696
0.155311 640.707
0.181102 660.531
0.192015 686.038
0.2061893 712.055
0.246716 720.213
0.302737 727.348
0.372466 733.915
0.474121 740.961
0.537798 744.47
0.6024543 747.541
0.6435793 749.357
0.684178 751.05
0.7242527 752.701
0.764418 754.373
0.790465 755.494
0.815945 756.643
0.841291 757.887
0.866639 759.278
0.913919 762.767
0.941891 766.23
0.965929 772.298

File: UiO-66-NH2.aif
data_b5196071c4cef6c8d99159e7bb06164a
_audit_aif_version 1.0
_audit_creation_method pyGAPS
_exptl_adsorptive 'nitrogen'
_exptl_temperature 77.0
_sample_material_id 'UiO-66-NH2'
_units_temperature 'K'
_units_pressure relative
_units_loading 'cm3/g'
_pygaps_pressure_mode 'relative'
_pygaps_pressure_unit 'None'
_pygaps_material_basis 'mass'
_pygaps_material_unit 'g'
_pygaps_loading_basis 'volume_gas'
_pygaps_loading_unit 'cm3'
_pygaps_temperature_unit 'K'

loop_
_adsorp_pressure
_adsorp_amount
8.5e-07 19.5369
2.29e-06 39.2633
5.69e-06 58.8985
1.04e-05 78.5368
2.12e-05 98.1616
4.17e-05 117.773
8.81e-05 137.365
0.00019284 156.893
0.00044122 176.346
0.00098934 194.983
0.00192176 210.942
0.00291461 221.457
0.00394491 229.297
0.00481317 234.449
0.00594435 239.963
0.00683536 243.625
0.00791436 247.507
0.00888334 250.645
0.00993294 253.724
0.01909818 275.105
0.02913296 293.921
0.03842946 310.312
0.05082888 325.711
0.0573561 331.611
0.06982171 340.196
0.0802729 345.455
0.09059161 349.261
0.100872 352.216
0.145608 360.647
0.204339 367.217
0.256823 371.572
0.307448 375.18
0.355312 378.274
0.400438 380.993
0.450467 383.837
0.500563 386.595
0.550629 389.326
0.600467 392.136
0.650694 395.114
0.70078 398.4
0.749541 402.012
0.799036 406.486
0.809765 407.799
0.820898 409.045
0.830183 410.199
0.840518 411.533
0.850135 412.867
0.860012 414.365
0.870324 416.064
0.880063 417.867
0.890037 419.924
0.899697 422.216
0.910225 425.041
0.920572 428.25
0.9297318 431.883
0.939226 436.345
0.948783 442.354
0.959005 450.963
0.968528 463.104
0.977413 482.262
0.986178 513.238
0.992911 555.957

File: UiO-66.aif
data_457d81e80dfdb96454312d09e6e7c665
_audit_aif_version 1.0
_audit_creation_method pyGAPS
_exptl_adsorptive 'nitrogen'
_exptl_temperature 77.0
_sample_material_id 'UiO-66'
_units_temperature 'K'
_units_pressure relative
_units_loading 'cm3/g'
_pygaps_pressure_mode 'relative'
_pygaps_pressure_unit 'None'
_pygaps_material_basis 'mass'
_pygaps_material_unit 'g'
_pygaps_loading_basis 'volume_gas'
_pygaps_loading_unit 'cm3'
_pygaps_temperature_unit 'K'

loop_
_adsorp_pressure
_adsorp_amount
1.2e-07 2.51421
2.5e-07 5.03725
3.5e-07 7.55824
5.5e-07 10.0859
7.6e-07 12.5973
1e-06 15.1046
1.22e-06 17.6388
1.47e-06 20.1634
1.97e-06 22.6913
2.84e-06 25.2215
3.85e-06 27.7319
5.17e-06 30.2541
6.88e-06 32.7757
8.83e-06 35.2992
1.14e-05 37.8351
1.44e-05 40.3645
1.78e-05 42.8806
2.15e-05 45.4115
2.54e-05 47.9454
2.91e-05 50.4589
3.3e-05 52.9952
3.67e-05 55.5098
4.04e-05 58.0454
4.4e-05 60.5875
4.76e-05 63.1276
5.12e-05 65.6682
5.48e-05 68.203
5.86e-05 70.7494
6.25e-05 73.2719
6.65e-05 75.7998
7.07e-05 78.3309
7.53e-05 80.8654
7.99e-05 83.3858
8.49e-05 85.9259
9.02e-05 88.4503
9.59e-05 90.9802
0.00010187 93.5077
0.00010843 96.0294
0.00011567 98.5676
0.00012392 101.098
0.00013253 103.644
0.00014208 106.172
0.00015222 108.699
0.00016353 111.219
0.00017505 113.744
0.0001884 116.274
0.0002031 118.799
0.00021953 121.325
0.00023727 123.848
0.00025686 126.378
0.00027838 128.905
0.00030212 131.428
0.00032834 133.966
0.00035746 136.488
0.00038942 139.008
0.00042504 141.532
0.00046396 144.039
0.00050749 146.548
0.00055577 149.06
0.00060942 151.57
0.00066854 154.061
0.00073372 156.534
0.00080532 158.995
0.0008836 161.444
0.00096956 163.872
0.00118028 168.6
0.00136992 172.5
0.0016599 177.7
0.00198387 182.643
0.00248123 188.8
0.0029778 193.956
0.00390028 202.086
0.0049016 209.48
0.00574858 214.955
0.0068152 220.954
0.00793226 226.471
0.00890856 230.793
0.00992481 234.943
0.01221611 242.0
0.01534447 250.3
0.02065701 260.212
0.029154 267.667
0.04303833 274.492
0.05607993 278.478
0.06013303 279.479
0.07031019 281.616
0.08044432 283.398
0.090171 284.871
0.100546 286.245
0.110564 287.446
0.1206022 288.518
0.130586 289.501
0.140095 290.39
0.150375 291.264
0.160508 292.051
0.170668 292.805
0.179966 293.487
0.190646 294.209
0.2003016 294.826
0.210335 295.439
0.220488 296.031
0.230573 296.586
0.240847 297.154
0.250568 297.665
0.260795 298.182
0.269581 298.636
0.280302 299.134
0.290696 299.612
0.300169 300
0.319237 300.844
0.340946 301.743
0.360937 302.537
0.380701 303.296
0.401084 304.066
0.421098 304.795
0.440715 305.508
0.460879 306.227
0.479423 306.926
0.500683 307.676
0.519295 308.373
0.5409888 309.113
0.559147 309.806
0.580858 310.577
0.600769 311.301
0.620649 312.02
0.640945 312.783
0.660587 313.537
0.680476 314.357
0.699493 315.23
0.71941 316.191
0.739506 317.191
0.759643 318.301
0.779643 319.48
0.799645 320.762
0.809048 321.467
0.820769 322.313
0.829733 323.057
0.839253 323.915
0.850506 324.914
0.860631 325.976
0.869346 326.946
0.880763 328.291
0.889853 329.5
0.900879 331.125
0.909389 332.582
0.919316 334.498
0.929206 336.777
0.939179 339.622
0.94913 343.327
0.986264 404.226
0.989723 439.351
0.9922017 501.973

File: ZIF-8.aif
data_4c1b19fca8d6f499f7de9414b868d369
_audit_aif_version 1.0
_audit_creation_method pyGAPS
_exptl_adsorptive 'nitrogen'
_exptl_temperature 77.0
_sample_material_id 'ZIF-8'
_units_temperature 'K'
_units_pressure relative
_units_loading 'cm3/g'
_pygaps_pressure_mode 'relative'
_pygaps_pressure_unit 'None'
_pygaps_material_basis 'mass'
_pygaps_material_unit 'g'
_pygaps_loading_basis 'volume_gas'
_pygaps_loading_unit 'cm3'
_pygaps_temperature_unit 'K'

loop_
_adsorp_pressure
_adsorp_amount
4.2e-05 20.349
9.97e-05 40.698
0.00014812 60.914
0.00018851 81.263
0.00022428 101.612
0.00025984 122.094
0.00029995 142.31
0.00034906 162.26
0.00041793 183.54
0.00052108 203.49
0.00068477 223.44
0.00094986 243.39
0.00142272 263.34
0.00193056 275.31
0.00293669 288.61
0.0038711 295.26
0.00494507 301.91
0.00573077 305.9
0.00669891 312.55
0.00805449 323.19
0.00889211 328.51
0.00978126 332.5
0.02074716 356.44
0.02911093 364.42
0.03816369 400.33
0.04836001 413.63
0.0637743 420.28
0.06977686 421.61
0.08004303 424.27
0.09008362 425.6
0.10043 428.26
0.145027 433.58
0.20271 438.9
0.25486 442.89
0.305344 446.88
0.354387 449.54
0.3992699 452.2
0.449413 454.86
0.499422 457.52
0.549131 460.18
0.599553 462.84
0.648966 465.5
0.699056 468.16
0.748964 470.82
0.7992439 474.81
0.809236 476.14
0.819317 476.14
0.8292668 477.47
0.839404 478.8
0.850175 480.13
0.859576 481.46
0.86908 482.79
0.879065 484.12
0.889537 485.45
0.899628 488.11
0.909863 489.44
0.919855 492.1
0.929147 494.76
0.939056 498.75
0.948885 502.74
0.959088 509.39
0.969052 517.37
0.978076 529.34
0.986984 549.29
0.994456 585.2