Folder: dubstandard/aif

Note: README.md
Attempts to determine optimum Dubinin (Astakhov or Radushkevich) volume from an isotherm. Work in progress.

# How it works

1. The Dubinin transform is performed on the isotherm. Exponent can be specified or automatically optimised. 
2. Transformed isotherm sliced into pieces. Dubinin pore volume and related parameters calculated from each slice.
3. The dictionary of results is filtered; automatic filter parameters;

| Parameter  | Value         | Explanation	|
| ---------------- | ---------------- | ------------ |
| 'bounds'   | [1, 3]                | bounds of exponent	|
| 'curvature_limit'  | 1             | amount of curvature in selected region 	|
| 'p_limits'         | [0, 0.1]              | pressure range of isotherm to select 	|
| 'max_capacity'     | (total pore capacity)         | maximm isotherm loading in liquid volume |
| 'min_points'      | 10            | minimum number of points in selected region 	|	
| 'corr_coef'        | 0.999         | minimum correlation coefficient of linear regression |


4. The fitting range with the lowest pore volume is selected as the optimum.
5. Results are exported.
# Installation

- Install [pygaps](https://github.com/pauliacomi/pyGAPS/)
- Clone this rep
- `cd` into the cloned repo, and do `pip install .`

# Basic use

Run the function `analyseDR` on a pygaps isotherm, e.g.

```py

import pygaps.parsing as pgp
from dubstandard.dubinin import analyseDR

file = '/path/to/file.aif'
isotherm = pgp.isotherm_from_aif(
		isotherm,
		**{} # filter parameters can be changed here.
		)
analyseDR(isotherm)

```

Currently the easiest way to run the program is to start with an isotherm in `.aif` format. Example isotherms (copied from [betsi](https://github.com/nakulrampal/betsi-gui)) can be found in [`./example/aif/`](./example/aif/). Results from both Dubinin-Radushkevich and optimised Dubinin-Astakhov treatment can also be found in [`./example/`](./example/). 


# Testing on example isotherm set

Only a few isotherms successfully generated a Dubinin pore volume. It is possible that results could be attained by increasing bounds of exponent.

File: DMOF-1.aif
data_2fac222ff408c53d9c6360f44da222f4
_audit_aif_version 1.0
_audit_creation_method pyGAPS
_exptl_adsorptive 'nitrogen'
_exptl_temperature 77.0
_sample_material_id 'DMOF-1'
_units_temperature 'K'
_units_pressure relative
_units_loading 'cm3/g'
_pygaps_pressure_mode 'relative'
_pygaps_pressure_unit 'None'
_pygaps_material_basis 'mass'
_pygaps_material_unit 'g'
_pygaps_loading_basis 'volume_gas'
_pygaps_loading_unit 'cm3'
_pygaps_temperature_unit 'K'

loop_
_adsorp_pressure
_adsorp_amount
4.75e-05 0.291525
9.69e-05 0.576831
0.00012318 0.620049
0.00012858 0.658136
0.00016453 0.952826
0.0002173 5.9964
0.00025721 15.9663
0.00027912 25.9374
0.00030074 35.9062
0.00032297 45.8747
0.00035141 56.1855
0.00036869 66.1524
0.00038369 76.1194
0.00039372 86.0866
0.00041067 96.0527
0.0004314 106.022
0.00043352 115.991
0.0004341 125.956
0.00044681 135.92
0.00044822 155.853
0.00046013 212.5
0.0004699 242.8
0.00047987 263.6
0.00049592 293.589
0.00050584 312.603
0.00052276 322.559
0.00056128 332.508
0.00061237 351.476
0.0007629 361.397
0.00104649 371.29
0.00133878 376.7
0.00169084 381.172
0.00220066 385.8
0.00283096 390.919
0.00334862 396.201
0.00395308 406.052
0.00434059 415.523
0.00536489 425.145
0.00659992 430.69
0.00840901 435.144
0.01064712 438.35
0.01347842 440.784
0.01740082 442.841
0.02203745 444.346
0.0288725 445.708
0.0379485 446.804
0.04322117 447.246
0.05633047 448.001
0.07570483 448.672
0.09674745 449.124
0.121067 449.47
0.148104 449.732
0.182104 449.965
0.230198 450.201
0.294028 450.436
0.376153 450.67
0.47515 450.957
0.539635 451.201
0.602891 451.544
0.6441129 451.874
0.683964 452.334
0.723677 453.015
0.7624415 454.126
0.7894 455.385
0.815017 457.081
0.840146 459.277
0.865212 462.03
0.930034 467.33
0.95885 467.786
0.983378 468.348

File: EXP_ZIF-8powder.aif
data_3d512d2ee487fa9b53770b79de0f526e
_audit_aif_version 1.0
_audit_creation_method pyGAPS
_exptl_adsorptive 'nitrogen'
_exptl_temperature 77.0
_sample_material_id 'EXP_ZIF-8powder'
_units_temperature 'K'
_units_pressure relative
_units_loading 'cm3/g'
_pygaps_pressure_mode 'relative'
_pygaps_pressure_unit 'None'
_pygaps_material_basis 'mass'
_pygaps_material_unit 'g'
_pygaps_loading_basis 'volume_gas'
_pygaps_loading_unit 'cm3'
_pygaps_temperature_unit 'K'

loop_
_adsorp_pressure
_adsorp_amount
4.2e-05 20.2827
9.969e-05 40.673
0.00014812 60.8768
0.00018851 81.2511
0.00022428 101.619
0.00025984 122.03
0.00029995 142.399
0.00034906 162.786
0.00041793 183.077
0.00052108 203.347
0.00068477 223.567
0.00094986 243.586
0.00142272 263.188
0.00193056 275.084
0.00293669 288.422
0.0038711 295.855
0.00494507 301.799
0.00573077 305.33
0.00669891 312.628
0.00805449 323.337
0.00889211 328.072
0.00978126 332.321
0.02074716 356.461
0.02911093 364.384
0.03816369 400.802
0.04836001 414.136
0.0637743 420.063
0.06977686 421.703
0.08004303 424.026
0.09008362 425.975
0.10043 427.725
0.145027 433.484
0.20271 438.997
0.25486 443.154
0.305344 446.727
0.354387 449.933
0.3992699 452.62
0.449413 455.327
0.499422 457.832
0.549131 460.224
0.599553 462.618
0.648966 465.068
0.699056 467.854
0.748964 471.047
0.7992439 474.815
0.809236 475.769
0.819317 476.77
0.8292668 477.786
0.839404 478.859
0.850175 480.095
0.859576 481.218
0.86908 482.572
0.879065 484.124
0.889537 485.88
0.899628 487.736
0.909863 489.885
0.919855 492.417
0.929147 495.204
0.939056 498.743
0.948885 503.23
0.959088 509.388
0.969052 517.72
0.978076 529.029
0.986984 548.985
0.994456 585.441

File: MCM-41.aif
data_ee130b5d06e85bf3cf5fbf1686deec57
_audit_aif_version 1.0
_audit_creation_method pyGAPS
_exptl_adsorptive 'nitrogen'
_exptl_temperature 77.0
_sample_material_id 'MCM-41'
_units_temperature 'K'
_units_pressure relative
_units_loading 'cm3/g'
_pygaps_pressure_mode 'relative'
_pygaps_pressure_unit 'None'
_pygaps_material_basis 'mass'
_pygaps_material_unit 'g'
_pygaps_loading_basis 'volume_gas'
_pygaps_loading_unit 'cm3'
_pygaps_temperature_unit 'K'

loop_
_adsorp_pressure
_adsorp_amount
0.00979 141.85
0.013 147.3
0.01699222 153.9
0.02199368 161.7
0.02998674 172.9
0.03965804 183.788
0.05602261 197.1
0.07129544 206.89
0.1049275 225.112
0.1296991 236.616
0.159961 249.475
0.191746 262.327
0.222604 274.802
0.252936 287.723
0.284027 303.513
0.3051353 320.3
0.316013 333.943
0.3338712 392.7
0.343961 420.773
0.372991 458.9
0.427552 493.679
0.447576 495.091
0.476895 496.975
0.499736 498.291
0.529858 499.888
0.560582 501.384
0.591213 502.776
0.6218789 504.132
0.652785 505.412
0.683268 506.643
0.713948 507.858
0.744564 509.086
0.775127 510.351
0.806788 511.668
0.83655 512.973
0.867019 514.441
0.897226 516.307
0.937869 520.878

File: Mg-MOF-74.aif
data_03b34dd8019f60c26042fc12a0c3a8f7
_audit_aif_version 1.0
_audit_creation_method pyGAPS
_exptl_adsorptive 'nitrogen'
_exptl_temperature 77.0
_sample_material_id 'Mg-MOF-74'
_units_temperature 'K'
_units_pressure relative
_units_loading 'cm3/g'
_pygaps_pressure_mode 'relative'
_pygaps_pressure_unit 'None'
_pygaps_material_basis 'mass'
_pygaps_material_unit 'g'
_pygaps_loading_basis 'volume_gas'
_pygaps_loading_unit 'cm3'
_pygaps_temperature_unit 'K'

loop_
_adsorp_pressure
_adsorp_amount
3.41e-05 2.67973
5.85e-05 3.33732
8.29e-05 9.38407
0.00010698 29.275
0.0001256 49.1668
0.00014407 69.0553
0.00016378 88.934
0.00018735 108.805
0.00020874 117.643
0.00026291 123.382
0.00032538 143.255
0.0003933 163.055
0.00040154 166.149
0.00046013 177.7
0.00054142 185.866
0.00065031 188.426
0.00085822 194.449
0.00113001 201.05
0.00135207 204.545
0.00162969 207.859
0.00204844 211.851
0.00267263 216.356
0.00340465 219.856
0.00423609 222.369
0.00522907 224.474
0.00680455 227.019
0.00867064 229.092
0.01060253 230.66
0.01356059 232.492
0.0175136 234.253
0.02198175 235.694
0.02779759 237.144
0.03555833 238.641
0.0450877 240.064
0.05708432 241.482
0.07385285 242.98
0.09350452 244.418
0.117918 245.849
0.148441 247.347
0.187453 248.942
0.236738 250.673
0.301022 252.576
0.376151 254.571
0.475698 256.971
0.539979 258.31
0.603025 259.576
0.644358 260.291
0.684219 260.927
0.724397 261.538
0.764352 262.216
0.790607 262.679
0.815986 263.154
0.841262 263.725
0.866822 264.36
0.914684 266.0
0.942892 267.34
0.967733 269.159

File: MOF-5.aif
data_327dd9c852716c723c32f8f6a19edffe
_audit_aif_version 1.0
_audit_creation_method pyGAPS
_exptl_adsorptive 'nitrogen'
_exptl_temperature 77.0
_sample_material_id 'MOF-5'
_units_temperature 'K'
_units_pressure relative
_units_loading 'cm3/g'
_pygaps_pressure_mode 'relative'
_pygaps_pressure_unit 'None'
_pygaps_material_basis 'mass'
_pygaps_material_unit 'g'
_pygaps_loading_basis 'volume_gas'
_pygaps_loading_unit 'cm3'
_pygaps_temperature_unit 'K'

loop_
_adsorp_pressure
_adsorp_amount
4.88e-05 1.036
0.00010304 1.90804
0.00015226 2.15571
0.00019299 2.70102
0.00022769 3.15102
0.00026208 3.80533
0.00033932 17.8542
0.00041033 37.6792
0.00043606 44.4798
0.0005309 64.2932
0.00068157 83.5137
0.00082556 91.8364
0.00101803 98.6779
0.00138748 112.605
0.00175426 124.388
0.00208204 134.337
0.00263458 154.113
0.003096 173.926
0.00342156 190.692
0.00373714 210.479
0.00399025 230.263
0.00420309 250.025
0.00438444 269.787
0.00455051 289.523
0.00470143 309.269
0.00483122 329.018
0.00495927 348.724
0.00508315 368.449
0.00519874 388.165
0.00532475 407.835
0.00545293 427.54
0.0055732 447.224
0.00569994 466.945
0.00587315 486.604
0.00605537 506.438
0.00627763 526.084
0.00653826 545.771
0.00687004 565.404
0.00727821 585.064
0.00784009 604.602
0.00853454 623.844
0.00953786 643.198
0.01071683 659.897
0.01271691 679.317
0.01335684 683.812
0.01678357 703.156
0.01719099 704.637
0.02166412 719.761
0.02955779 736.58
0.03749683 747.287
0.04381596 753.546
0.05635481 763.026
0.07500077 772.765
0.09462289 780.029
0.12134 787.346
0.148705 793.224
0.186664 800
0.233461 807.523
0.292644 816.234
0.376873 825.795
0.477272 831.283
0.557468 832.901
0.622325 833.317
0.663689 833.227
0.703953 832.993
0.744085 832.691
0.784235 832.312
0.81037 831.949
0.835704 831.671
0.861221 831.31
0.886535 830.969
0.936029 830.322
0.962544 830.02
0.987972 829.895

File: NU-1000.aif
data_cba279aa200bb1b90891d7e1fc996e4c
_audit_aif_version 1.0
_audit_creation_method pyGAPS
_exptl_adsorptive 'nitrogen'
_exptl_temperature 77.0
_sample_material_id 'NU-1000'
_units_temperature 'K'
_units_pressure relative
_units_loading 'cm3/g'
_pygaps_pressure_mode 'relative'
_pygaps_pressure_unit 'None'
_pygaps_material_basis 'mass'
_pygaps_material_unit 'g'
_pygaps_loading_basis 'volume_gas'
_pygaps_loading_unit 'cm3'
_pygaps_temperature_unit 'K'

loop_
_adsorp_pressure
_adsorp_amount
0.003831 245.411
0.00488786 260.7
0.005746 280.193
0.00648022 310.4
0.00663763 318.6
0.00720486 344.6
0.007662 355.556
0.00920508 364.1
0.011492 371.014
0.01339331 377.9
0.01853675 394.8
0.02107 401.932
0.028731 419.324
0.049801 448.309
0.06680349 463.0
0.080447 473.43
0.099601 488.889
0.109178 494.686
0.120671 504.348
0.133721 515.5
0.147487 527.536
0.160894 539.13
0.168556 546.86
0.178132 556.522
0.18771 566.184
0.197287 583.575
0.199488 600.2
0.201118 614.493
0.204948 643.478
0.206864 660.87
0.208462 678.2
0.210695 693.72
0.224103 699.517
0.268157 707.246
0.298803 709.179
0.33328 713.043
0.358181 716.908
0.402235 720.773
0.45012 724.638
0.503751 726.57
0.530567 728.502
0.555468 730.435
0.603353 730.435
0.655069 734.3
0.704869 736.232
0.735516 738.164
0.760417 738.164
0.806386 742.029
0.856187 742.029
0.904072 745.894
0.940464 747.826
0.999842 757.488

File: TPB-DMTP-COF.aif
data_54e9ab270be53e92ff20c6cb654f1421
_audit_aif_version 1.0
_audit_creation_method pyGAPS
_exptl_adsorptive 'nitrogen'
_exptl_temperature 77.0
_sample_material_id 'TPB-DMTP-COF'
_units_temperature 'K'
_units_pressure relative
_units_loading 'cm3/g'
_pygaps_pressure_mode 'relative'
_pygaps_pressure_unit 'None'
_pygaps_material_basis 'mass'
_pygaps_material_unit 'g'
_pygaps_loading_basis 'volume_gas'
_pygaps_loading_unit 'cm3'
_pygaps_temperature_unit 'K'

loop_
_adsorp_pressure
_adsorp_amount
0.00166587 196.982
0.00194442 204.596
0.00286896 225.785
0.00396559 245.531
0.00486786 259.249
0.0057265 270.594
0.00679092 282.958
0.00789483 294.274
0.00890037 303.402
0.00988706 311.533
0.01199818 325.7
0.01399577 337.7
0.01919738 364.28
0.023006 380.5
0.02884945 402.005
0.03824153 432.055
0.0500177 465.046
0.05705916 483.043
0.069002 511.318
0.07905353 533.223
0.08892752 553.511
0.09890298 572.689
0.1178429 606.25
0.137931 638.703
0.158643 670.077
0.178416 700.003
0.197221 730.806
0.2143579 773.984
0.224922 892.8
0.235341 999.326
0.268275 1042.28
0.295847 1060.15
0.3261189 1078.69
0.342338 1087.51
0.3600293 1096.14
0.380357 1105.53
0.399925 1114.12
0.448298 1134.84
0.50004 1156.09
0.549395 1176.26
0.599734 1197.33
0.64933 1219.07
0.699352 1242.6
0.749629 1269.76
0.798779 1301.44
0.847692 1344.86
0.896305 1413.55
0.946154 1564.01
0.99812 2313.94

File: Zeolite-13X.aif
data_9bb8bd3435e8fd607c22236a7c2aba7a
_audit_aif_version 1.0
_audit_creation_method pyGAPS
_exptl_adsorptive 'nitrogen'
_exptl_temperature 77.0
_sample_material_id 'Zeolite-13X'
_units_temperature 'K'
_units_pressure relative
_units_loading 'cm3/g'
_pygaps_pressure_mode 'relative'
_pygaps_pressure_unit 'None'
_pygaps_material_basis 'mass'
_pygaps_material_unit 'g'
_pygaps_loading_basis 'volume_gas'
_pygaps_loading_unit 'cm3'
_pygaps_temperature_unit 'K'

loop_
_adsorp_pressure
_adsorp_amount
2e-05 2.02648
5.79e-05 2.54124
9.07e-05 3.5472
9.97e-05 5.86678
0.00012 15.08
0.00013588 25.7629
0.00014998 40.33
0.00015373 45.6781
0.0001622 64.1224
0.00016995 75.52
0.00017989 84.0243
0.00020622 88.1031
0.0002476 90.4145
0.00027992 98.4
0.00030673 110.313
0.00032006 118.2
0.00033194 130.17
0.00034018 149.91
0.00041014 162.7
0.00053783 169.283
0.0009001 175.9
0.00168689 181.742
0.00209589 183.171
0.00262318 184.567
0.00329974 185.915
0.00418592 187.208
0.00525523 188.356
0.00665711 189.491
0.00849101 190.615
0.01080895 191.675
0.01367232 192.662
0.01737915 193.63
0.02212002 194.546
0.02797221 195.401
0.03550244 196.262
0.04518963 197.087
0.05710476 197.855
0.07350381 198.662
0.09289727 199.382
0.117365 200.068
0.148033 200.718
0.186992 201.342
0.23627 201.92
0.298619 202.453
0.376376 202.916
0.475677 203.309
0.5396658 203.521
0.603275 203.693
0.644041 203.808
0.6842693 203.919
0.724374 204.028
0.764422 204.153
0.790647 204.246
0.815998 204.364
0.841458 204.476
0.8666316 204.617
0.915619 205.033
0.942539 205.51
0.967869 206.364